{NUMBER OF COLUMNS}  4 
*
*     psin         Jsat          Ne       Te
*  ?     (Amps)   (eV)
{DATA LIST} 
   1.01060   9.9460E+02  2.9472E+17   4.6260
   1.01240   3.2751E+03  1.8102E+18   1.3297
   1.01556   4.3960E+03  1.2217E+18   5.2595
   1.01668   5.4941E+03  2.0217E+18   2.9999
   1.01750   5.9142E+03  3.1046E+18   3.2611
   1.01931   7.5359E+03  4.0268E+18   2.8956
   1.02245   1.1072E+04  4.5566E+18   4.0334
   1.02357   1.7080E+04  5.8050E+18   4.4430
   1.02441   2.4473E+04  7.8520E+18   4.6699
   1.02623   3.5085E+04  1.0616E+19   4.9816
   1.02934   4.6465E+04  1.2754E+19   5.4214
   1.03131   5.7128E+04  1.4535E+19   6.1296
   1.03314   6.7757E+04  1.7385E+19   6.3452
   1.03624   7.7365E+04  1.9410E+19   6.8871
   1.03823   8.8293E+04  2.1664E+19   7.4412
   1.04007   9.8927E+04  2.4782E+19   6.7993
   1.04314   1.0567E+05  2.6602E+19   6.5760
   1.04429   1.1249E+05  2.7889E+19   6.7983
   1.04514   1.1487E+05  2.8894E+19   6.6792
   1.04699   1.1796E+05  3.0366E+19   6.1788
   1.05003   1.1718E+05  3.0800E+19   5.9250
   1.05120   1.1681E+05  3.0755E+19   5.9039
   1.05205   1.1738E+05  3.1153E+19   5.8002
   1.05392   1.1799E+05  3.1550E+19   5.7084
   1.05694   1.1329E+05  3.0616E+19   5.5789
   1.05811   1.1017E+05  3.0331E+19   5.3502
   1.05897   1.0557E+05  3.0379E+19   4.9301
   1.06085   1.0200E+05  2.8706E+19   5.2704
   1.06384   9.3716E+04  2.6479E+19   5.4316
   1.06502   9.0451E+04  2.4964E+19   5.7483
   1.06589   8.6633E+04  2.3618E+19   5.9478
   1.06778   8.3829E+04  2.1945E+19   6.8178
   1.07075   7.6956E+04  2.0491E+19   6.6054
   1.07194   7.5914E+04  2.0253E+19   6.5787
   1.07281   7.2116E+04  1.9192E+19   6.5582
   1.07471   6.8193E+04  1.7942E+19   6.5181
   1.07765   6.3087E+04  1.7388E+19   6.0009
   1.07885   6.1584E+04  1.7559E+19   5.5612
   1.07972   6.0921E+04  1.7681E+19   5.3416
   1.08164   5.9155E+04  1.7673E+19   5.0160
   1.08455   5.3641E+04  1.6904E+19   4.3642
   1.08576   5.2051E+04  1.5812E+19   4.8920
   1.08665   4.6667E+04  1.3898E+19   5.3090
   1.08857   4.3778E+04  1.2811E+19   5.6780
   1.09835   3.9798E+04  1.0951E+19   6.3410
   1.09958   3.8487E+04  1.0027E+19   6.8942
   1.10047   3.6987E+04  9.3234E+18   7.1096
   1.10242   3.2118E+04  8.0116E+18   7.0047
   1.10523   2.8190E+04  6.6894E+18   7.1973
   1.10647   2.7444E+04  6.6629E+18   6.9107
   1.10737   2.5073E+04  6.2154E+18   6.6951
   1.10934   2.2780E+04  5.7601E+18   6.3903
   1.11212   2.1014E+04  5.3653E+18   6.3772
   1.11337   1.9980E+04  5.2088E+18   6.0377
   1.11428   1.7749E+04  4.8213E+18   5.5708
   1.11625   1.5345E+04  4.1763E+18   5.6339
   1.11900   1.5057E+04  4.0114E+18   5.8273
   1.12026   1.4141E+04  3.7794E+18   5.7654
   1.12117   1.3524E+04  3.5233E+18   5.9292
   1.12316   1.2893E+04  3.4590E+18   5.7049
   1.12586   1.3618E+04  3.6652E+18   5.6879
   1.12713   1.2103E+04  3.3270E+18   5.4572
   1.12805   1.2307E+04  3.3496E+18   5.5744
   1.13005   1.1876E+04  3.1683E+18   5.8035
   1.13271   1.1455E+04  3.0962E+18   5.6722
   1.13399   1.0636E+04  2.8982E+18   5.5716
   1.13492   1.1192E+04  3.0731E+18   5.5105
   1.13693   1.1195E+04  2.7085E+18  13.7855
   1.13957   1.0481E+04  2.4980E+18  13.7653
   1.14086   9.0273E+03  2.0930E+18  13.7705
   1.14179   9.4651E+03  2.2454E+18  13.5457
   1.14381   9.2513E+03  2.0983E+18  14.3720
   1.14639   1.0058E+04  2.2976E+18  14.4094
   1.14769   9.6039E+03  2.1946E+18  14.3060
   1.14862   9.7723E+03  2.1955E+18  14.5956
   1.15066   1.1257E+04  2.3165E+18  15.4630
   1.15319   9.8954E+03  2.3625E+18   6.9787
   1.15451   9.2004E+03  2.1566E+18   6.9087
   1.15545   9.4886E+03  2.2464E+18   6.8509
   1.15750   9.3768E+03  2.1404E+18   7.8194
   1.16000   8.9504E+03  2.1368E+18   6.9576
   1.16132   7.9187E+03  1.8888E+18   6.8269
   1.16227   8.1044E+03  1.9651E+18   6.7659
   1.16434   7.4271E+03  1.8074E+18   6.8297
   1.16678   4.9464E+03  1.3850E+18   6.0917
   1.16811   5.6978E+03  1.5368E+18   6.3438
   1.16906   6.3704E+03  1.6241E+18   7.0096
   1.17114   5.9600E+03  1.4794E+18   7.6234
   1.17352   5.9253E+03  1.5527E+18   6.5778
   1.17487   6.9896E+03  1.8495E+18   6.4899
   1.17583   7.3766E+03  2.0645E+18   6.1933
   1.17792   6.8087E+03  1.8362E+18   6.7448
   1.18026   7.0440E+03  1.8671E+18   7.3318
   1.18162   8.0386E+03  2.1834E+18   7.1625
   1.18259   7.4159E+03  2.0254E+18   7.1836
   1.18469   6.5275E+03  1.8638E+18   6.5376
   1.18699   6.4783E+03  1.8493E+18   6.8394
   1.18835   7.4577E+03  2.0663E+18   7.1376
   1.18933   5.8726E+03  1.6494E+18   7.0806
   1.19144   5.4252E+03  1.4136E+18   7.4159
   1.19364   6.0276E+03  1.6633E+18   6.8386
   1.19502   6.6807E+03  1.9131E+18   5.8432
   1.19600   5.8936E+03  1.6281E+18   6.3230
   1.19812   6.8247E+03  1.6400E+18   8.9854
   1.20029   7.5765E+03  1.9099E+18   8.9307
   1.20168   8.0975E+03  2.5040E+18   7.5468
   1.20267   6.9639E+03  2.1956E+18   7.7110
   1.20481   6.9361E+03  2.4191E+18   7.1692
   1.20694   7.1779E+03  2.5539E+18   6.8756
   1.20835   6.7873E+03  2.4586E+18   6.7675
   1.20934   6.1193E+03  2.2767E+18   6.6515
   1.21149   6.2199E+03  2.3704E+18   6.0880
   1.21349   5.1074E+03  2.3752E+18   3.0318
   1.21491   4.5114E+03  2.1530E+18   3.1149
   1.21591   4.5804E+03  1.7682E+18   3.5334
   1.21807   4.7987E+03  1.8482E+18   3.2517
   1.22003   5.6480E+03  1.8845E+18   3.6948
   1.22146   5.2198E+03  1.6823E+18   4.5137
   1.22247   5.2346E+03  1.6715E+18   4.5580
   1.22464   5.0634E+03  1.7445E+18   4.2284
   1.22657   5.3358E+03  2.3166E+18   3.8858
   1.22802   5.4062E+03  2.2263E+18   5.0816
   1.22903   5.5784E+03  2.2021E+18   6.3662
   1.23122   5.3255E+03  2.0631E+18   7.0618
   1.23302   5.3415E+03  2.3463E+18   6.6016
   1.23448   4.7183E+03  2.1351E+18   6.7570
   1.23550   4.7219E+03  2.1351E+18   6.7930
   1.23770   4.4407E+03  1.9661E+18   7.9042
   1.23943   4.3387E+03  1.7772E+18   9.1409
   1.24090   3.6493E+03  1.0500E+18   9.7810
   1.24193   3.1845E+03  9.9065E+17   8.7257
   1.24414   3.0000E+03  9.5999E+17   8.7839
   1.24584   3.0028E+03  1.1325E+18   7.7859
   1.24732   2.9642E+03  8.6926E+17   8.0917
   1.24835   2.8071E+03  8.1814E+17   8.2348
   1.25218   3.0889E+03  8.4979E+17   9.0534
   1.25368   3.0087E+03  8.2681E+17   9.7593
   1.25472   3.0616E+03  8.3745E+17   9.7083
   1.25695   3.6643E+03  1.0653E+18   9.3813
   1.25843   3.6407E+03  1.0593E+18   9.3519
   1.25995   3.8470E+03  1.2353E+18   7.8072
   1.26099   3.7122E+03  1.1070E+18   7.9751
   1.26324   3.5090E+03  1.0068E+18   8.3740
   1.26468   3.3847E+03  9.4708E+17  10.8554
   1.26621   3.1791E+03  9.9327E+17   9.1484
   1.26726   2.9622E+03  1.0081E+18   7.0461
   1.26952   3.0980E+03  1.0390E+18   6.8717
   1.27090   2.4384E+03  7.8840E+17   7.7522
   1.27245   2.4928E+03  8.7192E+17   7.3879
   1.27351   2.0559E+03  6.6295E+17   8.2711
   1.27578   1.9345E+03  5.7466E+17   8.9080
   1.27853   1.8519E+03  5.3291E+17  10.8256
   1.27959   1.7367E+03  5.2636E+17   9.0824
   1.28187   1.5539E+03  4.3279E+17   9.6074
   1.28461   1.6648E+03  4.3101E+17  10.0251
   1.28908   1.4761E+03  3.9659E+17   9.7778
   1.29069   1.1526E+03  1.9859E+17  13.6828
   1.29176   1.1655E+03  2.7501E+17   7.2957
   1.29659   1.5644E+03  4.8158E+17   4.2863
   1.29999   1.3462E+03  3.1492E+17   7.4224
{END}
