{NUMBER OF COLUMNS}  4 
*
*     psin         Jsat          Ne       Te
*  ?     (Amps)   (eV)
{DATA LIST} 
   0.84215   1.0781E+02  1.7900E+17   0.1473
   0.84372   4.3555E+02  1.2481E+17   4.9464
   0.85096   5.3414E+02  1.4864E+17   6.7803
   0.86460   5.8988E+02  1.2703E+17   9.1627
   0.86463   6.3179E+02  1.3747E+17   9.2522
   0.86542   5.9343E+02  1.3274E+17   8.7924
   0.87195   6.1073E+02  1.4282E+17   8.0575
   0.87273   5.5234E+02  1.3200E+17   7.8346
   0.88008   6.1591E+02  1.4553E+17   7.5218
   0.88024   6.2286E+02  1.4286E+17   7.8446
   0.89478   5.8613E+02  1.3224E+17   8.1772
   0.89483   5.7130E+02  1.2821E+17   8.2143
   0.89499   5.8647E+02  1.3868E+17   7.6034
   0.91049   5.7955E+02  1.3865E+17   7.4060
   0.91067   5.6002E+02  1.3231E+17   7.5852
   0.91167   5.9966E+02  1.4009E+17   7.7256
   0.92535   5.5471E+02  1.2468E+17   8.7138
   0.92555   6.2037E+02  1.2496E+17  10.1065
   0.92643   7.6163E+02  1.7011E+17   9.3646
   0.94004   7.8521E+02  1.7794E+17   9.1437
   0.94022   7.7478E+02  1.7785E+17   8.8093
   0.94045   8.5465E+02  1.9373E+17   8.6345
   0.94082   1.2488E+03  2.7574E+17   8.2559
   0.94120   1.9131E+03  4.3768E+17   8.3972
   0.95574   2.1711E+03  4.8235E+17   9.1050
   0.95596   2.5058E+03  5.8045E+17   8.6423
   0.95621   2.7135E+03  6.3492E+17   7.9462
   0.95652   3.1032E+03  7.6829E+17   7.1485
   0.95683   3.2026E+03  7.9491E+17   7.1308
   0.96330   3.2515E+03  8.5672E+17   5.8826
   0.96355   3.5151E+03  9.2108E+17   5.9911
   0.96380   3.8000E+03  1.0025E+18   5.7218
   0.96408   5.2599E+03  1.4719E+18   5.4238
   0.96436   8.0295E+03  2.2053E+18   5.3313
   0.97095   9.4925E+03  2.4312E+18   6.7171
   0.97121   1.0733E+04  2.8595E+18   6.3799
   0.97148   1.2150E+04  3.2616E+18   6.2082
   0.97172   1.4825E+04  4.0535E+18   6.2080
   0.97197   2.6036E+04  6.5588E+18   6.5132
   0.97859   2.8829E+04  7.6245E+18   5.1836
   0.97888   3.1980E+04  8.4970E+18   5.3269
   0.97916   3.4468E+04  9.1656E+18   5.3530
   0.97937   3.8527E+04  9.9853E+18   5.6820
   0.97959   3.3278E+04  8.7534E+18   5.6933
   0.98637   3.7599E+04  9.4538E+18   6.2722
   0.98668   4.1178E+04  1.0084E+19   6.6823
   0.98696   4.5366E+04  1.1221E+19   6.6826
   0.98715   4.3864E+04  1.0698E+19   6.8858
   0.98733   4.7529E+04  1.1079E+19   7.4678
   0.99390   4.6803E+04  1.0885E+19   7.5018
   0.99423   4.6437E+04  1.0831E+19   7.4553
   0.99453   4.5304E+04  1.0333E+19   7.6906
   0.99468   4.1996E+04  9.8115E+18   7.1622
   0.99483   3.3946E+04  8.7336E+18   6.0268
   1.00157   3.1235E+04  8.0353E+18   6.1865
   1.00192   3.0139E+04  6.7788E+18  11.3681
   1.00223   2.8699E+04  6.2146E+18  11.8298
   1.00235   2.7917E+04  5.9410E+18  11.9090
   1.00247   2.8686E+04  5.8323E+18  12.3932
   1.00924   2.7508E+04  5.7212E+18  11.9834
   1.00961   2.4792E+04  5.9253E+18   7.0901
   1.00993   2.3540E+04  5.7178E+18   6.9049
   1.01002   2.2612E+04  5.4803E+18   6.8387
   1.01010   1.9590E+04  4.6404E+18   7.4556
   1.01691   1.7622E+04  4.1327E+18   7.4702
   1.01731   1.5181E+04  3.6342E+18   7.1672
   1.01763   1.3110E+04  3.3949E+18   6.4363
   1.01769   1.2876E+04  3.2099E+18   6.8451
   1.01775   1.3497E+04  3.4748E+18   6.2420
   1.02460   1.3028E+04  3.3512E+18   6.2638
   1.02502   1.2686E+04  3.3258E+18   5.9610
   1.02535   1.2508E+04  3.3363E+18   5.8356
   1.02538   1.1391E+04  3.1148E+18   5.4796
   1.02540   1.0477E+04  2.9442E+18   5.3007
   1.03228   1.0306E+04  2.9257E+18   5.1724
   1.03272   9.9820E+03  2.8013E+18   5.3574
   1.03305   9.0319E+03  2.4063E+18   5.6455
   1.03306   8.9423E+03  2.3712E+18   5.7034
   1.03307   6.9893E+03  2.4484E+18   4.5313
   1.03997   6.7688E+03  2.3743E+18   4.6200
   1.04043   7.4681E+03  2.5229E+18   4.7862
   1.04071   7.1442E+03  2.4359E+18   4.7691
   1.04075   7.4045E+03  2.4905E+18   4.8669
   1.04079   7.4638E+03  2.0401E+18   5.3796
   1.04767   7.4158E+03  2.1168E+18   4.9656
   1.04815   6.7425E+03  1.9771E+18   4.7859
   1.04837   6.3018E+03  1.8514E+18   4.8007
   1.04844   5.5852E+03  1.6624E+18   4.7847
   1.04852   6.4817E+03  1.8041E+18   5.3402
   1.05536   7.5935E+03  2.0297E+18   5.6535
   1.05587   8.0950E+03  2.2764E+18   5.2595
   1.05604   7.9838E+03  2.2902E+18   4.9535
   1.05614   7.9828E+03  2.3097E+18   4.7567
   1.05625   7.7186E+03  2.2369E+18   4.7748
   1.06306   5.5332E+03  1.6571E+18   4.6882
   1.06359   4.0604E+03  1.1586E+18   5.0011
   1.06370   5.5419E+03  1.4948E+18   5.4190
   1.06384   5.3610E+03  1.4133E+18   5.8474
   1.06397   4.1488E+03  1.0946E+18   5.8878
   1.07076   4.0382E+03  1.0630E+18   5.9045
   1.07130   4.5934E+03  1.3672E+18   5.2605
   1.07137   2.5953E+03  8.4481E+17   5.0887
   1.07170   3.9373E+03  1.2516E+18   4.7169
   1.07846   3.8264E+03  1.3740E+18   3.6014
   1.07903   4.2027E+03  1.5108E+18   3.3219
   1.07904   3.9926E+03  1.3285E+18   3.7305
   1.07944   4.2725E+03  1.3665E+18   4.4570
   1.08616   3.1588E+03  1.0326E+18   4.6121
   1.08671   3.4919E+03  9.4114E+17   6.2996
   1.08675   3.3010E+03  1.1590E+18   5.6281
   1.08694   2.9989E+03  1.0494E+18   5.8558
   1.08717   3.0350E+03  1.1479E+18   4.7800
   1.09385   2.7274E+03  1.0623E+18   4.8551
   1.09437   2.2779E+03  9.7831E+17   3.9788
   1.09446   2.0271E+03  6.4279E+17   4.3532
   1.09463   2.4821E+03  7.5048E+17   4.5133
   1.09489   4.2234E+03  1.1364E+18   5.0937
   1.10153   4.2160E+03  1.2018E+18   4.3781
   1.10202   4.1746E+03  1.1886E+18   4.4346
   1.10217   4.1250E+03  1.1415E+18   4.8959
   1.10261   3.4745E+03  1.0597E+18   3.9161
   1.10922   3.6080E+03  1.0810E+18   3.9668
   1.10967   3.5568E+03  1.0413E+18   4.1065
   1.10987   3.7091E+03  1.0743E+18   4.4892
   1.11000   4.6711E+03  1.2478E+18   5.5257
   1.11032   4.7918E+03  1.4620E+18   5.3596
   1.11690   2.9790E+03  1.0183E+18   5.1663
   1.11732   2.8661E+03  9.4881E+17   5.7339
   1.11758   3.5404E+03  1.1408E+18   5.4545
   1.11768   3.8255E+03  1.2752E+18   4.7276
   1.11804   3.7539E+03  1.0048E+18   5.5110
   1.12455   3.8206E+03  1.0988E+18   5.0238
   1.12494   4.0426E+03  1.1573E+18   5.0032
   1.12525   3.8634E+03  1.1179E+18   4.9068
   1.12533   2.6595E+03  8.2440E+17   4.5594
   1.12572   3.8871E+03  1.1186E+18   4.9470
   1.13220   4.1199E+03  1.0863E+18   5.6143
   1.13256   4.2810E+03  1.1206E+18   5.7230
   1.13292   3.9340E+03  9.9317E+17   6.4654
   1.13298   3.6577E+03  9.1068E+17   7.8563
   1.13341   2.3328E+03  5.5626E+17   9.3288
   1.13986   1.8933E+03  4.6621E+17   9.0221
   1.14018   1.5575E+03  4.5356E+17   8.1216
   1.14060   1.5368E+03  7.1001E+17   6.4903
   1.14064   2.3669E+03  9.4688E+17   5.1857
   1.14747   2.3335E+03  1.0829E+18   2.5507
   1.14776   2.5777E+03  1.2276E+18   2.1590
   1.14823   2.5622E+03  1.1574E+18   2.9262
   1.14825   2.9103E+03  1.0666E+18   3.5008
   1.15507   2.2507E+03  8.8094E+17   3.4028
   1.15533   2.7105E+03  8.7674E+17   4.4929
   1.15585   2.5770E+03  7.4704E+17   5.0745
   1.15586   2.3174E+03  6.7599E+17   5.4305
   1.16268   1.8052E+03  4.9107E+17   5.5764
   1.16291   2.9415E+03  2.1074E+18   4.7266
   1.16346   2.7677E+03  2.2578E+18   3.7168
   1.16348   2.2255E+03  2.1066E+18   4.2189
   1.17024   2.1986E+03  2.1112E+18   3.1477
   1.17044   2.3068E+03  2.1753E+18   2.8152
   1.17102   1.5447E+03  7.0929E+17   3.3587
   1.17107   1.3029E+03  4.3791E+17   5.0334
   1.17795   1.4249E+03  4.6448E+17   5.0680
   1.17863   1.5121E+03  4.7491E+17   6.0391
   1.17917   1.3692E+03  3.8309E+17   7.2304
   1.18531   1.0794E+03  2.4183E+17   8.0877
   1.18609   1.3941E+03  3.2933E+17   7.5498
   1.18618   1.2552E+03  3.0036E+17   7.3621
   1.18674   1.2215E+03  2.9303E+17   7.2887
   1.19282   1.7039E+03  4.0690E+17   7.1241
   1.19427   1.5882E+03  3.8493E+17   6.7439
   1.20025   1.2624E+03  3.2112E+17   6.2097
   1.20033   1.2168E+03  3.2374E+17   5.2124
   1.20116   1.4590E+03  4.2615E+17   4.4595
   1.21514   1.3191E+03  4.7248E+17   3.4999
   1.23808   2.9512E+03  1.2348E+18   2.8270
   1.24531   3.5909E+03  1.4754E+18   2.6619
   1.25249   3.9404E+03  1.6454E+18   2.5383
   1.25968   4.3573E+03  1.5753E+18   3.1076
   1.26679   2.1279E+03  1.0054E+18   1.8195
{END}
